trial,block,type,direction,stimulus,response,accuracy,rt,participant
1,practice,incongruent,left,>><>>,left,1,1091.0,1
2,practice,incongruent,left,>><>>,left,1,487.0,1
3,practice,congruent,right,>>>>>,right,1,635.0,1
4,practice,incongruent,right,<<><<,right,1,579.0,1
1,main,congruent,left,<<<<<,left,1,441.0,1
2,main,incongruent,right,<<><<,left,0,393.0,1
3,main,congruent,left,<<<<<,left,1,426.0,1
4,main,incongruent,right,<<><<,right,1,377.0,1
5,main,congruent,left,<<<<<,left,1,362.0,1
6,main,congruent,right,>>>>>,right,1,314.0,1
7,main,congruent,right,>>>>>,right,1,377.0,1
8,main,incongruent,right,<<><<,left,0,396.0,1
9,main,congruent,right,>>>>>,right,1,442.0,1
10,main,incongruent,left,>><>>,left,1,499.0,1
11,main,congruent,left,<<<<<,left,1,408.0,1
12,main,congruent,right,>>>>>,right,1,378.0,1
13,main,congruent,right,>>>>>,right,1,515.0,1
14,main,congruent,left,<<<<<,left,1,444.0,1
15,main,incongruent,left,>><>>,left,1,651.0,1
16,main,incongruent,left,>><>>,right,0,397.0,1
17,main,congruent,left,<<<<<,left,1,429.0,1
18,main,incongruent,left,>><>>,left,1,492.0,1
19,main,incongruent,left,>><>>,left,1,599.0,1
20,main,incongruent,right,<<><<,right,1,600.0,1
1,practice,congruent,left,<<<<<,left,1,565.0,2
2,practice,incongruent,left,>><>>,left,1,777.0,2
3,practice,incongruent,right,<<><<,right,1,612.0,2
4,practice,incongruent,left,>><>>,left,1,549.0,2
1,main,congruent,left,<<<<<,left,1,393.0,2
2,main,congruent,left,<<<<<,left,1,376.0,2
3,main,incongruent,right,<<><<,right,1,498.0,2
4,main,incongruent,right,<<><<,right,1,529.0,2
5,main,incongruent,left,>><>>,right,0,429.0,2
6,main,congruent,right,>>>>>,right,1,429.0,2
7,main,congruent,right,>>>>>,right,1,445.0,2
8,main,incongruent,right,<<><<,left,0,345.0,2
9,main,congruent,right,>>>>>,right,1,497.0,2
10,main,congruent,right,>>>>>,right,1,378.0,2
11,main,congruent,left,<<<<<,left,1,429.0,2
12,main,incongruent,right,<<><<,right,1,600.0,2
13,main,incongruent,right,<<><<,right,1,479.0,2
14,main,incongruent,right,<<><<,right,1,648.0,2
15,main,congruent,right,>>>>>,right,1,344.0,2
16,main,incongruent,right,<<><<,right,1,413.0,2
17,main,incongruent,left,>><>>,left,1,560.0,2
18,main,congruent,left,<<<<<,left,1,412.0,2
19,main,incongruent,left,>><>>,left,1,585.0,2
20,main,congruent,left,<<<<<,left,1,378.0,2
1,practice,incongruent,left,>><>>,no_response,0,,3
2,practice,congruent,right,>>>>>,no_response,0,,3
3,practice,congruent,right,>>>>>,right,1,1693.0,3
4,practice,incongruent,left,>><>>,left,1,581.0,3
1,main,congruent,left,<<<<<,left,1,481.0,3
2,main,congruent,left,<<<<<,left,1,368.0,3
3,main,congruent,left,<<<<<,left,1,379.0,3
4,main,incongruent,right,<<><<,right,1,445.0,3
5,main,congruent,left,<<<<<,left,1,430.0,3
6,main,incongruent,right,<<><<,right,1,617.0,3
7,main,incongruent,left,>><>>,left,1,411.0,3
8,main,incongruent,right,<<><<,right,1,414.0,3
9,main,incongruent,right,<<><<,right,1,411.0,3
10,main,congruent,left,<<<<<,left,1,377.0,3
11,main,congruent,left,<<<<<,left,1,375.0,3
12,main,congruent,left,<<<<<,left,1,328.0,3
13,main,congruent,right,>>>>>,right,1,364.0,3
14,main,incongruent,right,<<><<,left,0,380.0,3
15,main,congruent,right,>>>>>,right,1,395.0,3
16,main,incongruent,left,>><>>,left,1,414.0,3
17,main,congruent,right,>>>>>,right,1,378.0,3
18,main,congruent,right,>>>>>,right,1,394.0,3
19,main,incongruent,left,>><>>,left,1,408.0,3
20,main,incongruent,left,>><>>,left,1,482.0,3
1,practice,incongruent,right,<<><<,right,1,1178.0,4
2,practice,incongruent,left,>><>>,left,1,618.0,4
3,practice,congruent,left,<<<<<,left,1,521.0,4
4,practice,congruent,left,<<<<<,left,1,396.0,4
1,main,incongruent,left,>><>>,left,1,718.0,4
2,main,incongruent,left,>><>>,left,1,497.0,4
3,main,congruent,right,>>>>>,right,1,326.0,4
4,main,congruent,right,>>>>>,right,1,361.0,4
5,main,congruent,left,<<<<<,left,1,375.0,4
6,main,congruent,right,>>>>>,right,1,390.0,4
7,main,incongruent,left,>><>>,left,1,463.0,4
8,main,congruent,left,<<<<<,left,1,392.0,4
9,main,congruent,right,>>>>>,right,1,377.0,4
10,main,congruent,right,>>>>>,right,1,513.0,4
11,main,congruent,right,>>>>>,right,1,362.0,4
12,main,congruent,left,<<<<<,left,1,359.0,4
13,main,congruent,right,>>>>>,right,1,374.0,4
14,main,incongruent,right,<<><<,left,0,376.0,4
15,main,incongruent,left,>><>>,left,1,549.0,4
16,main,incongruent,right,<<><<,right,1,546.0,4
17,main,congruent,left,<<<<<,left,1,411.0,4
18,main,incongruent,right,<<><<,left,0,393.0,4
19,main,congruent,right,>>>>>,right,1,446.0,4
20,main,congruent,right,>>>>>,right,1,411.0,4
1,practice,incongruent,left,>><>>,left,1,1060.0,5
2,practice,congruent,left,<<<<<,left,1,623.0,5
3,practice,incongruent,left,>><>>,left,1,681.0,5
4,practice,incongruent,right,<<><<,right,1,652.0,5
1,main,incongruent,right,<<><<,right,1,972.0,5
2,main,incongruent,left,>><>>,left,1,564.0,5
3,main,incongruent,left,>><>>,left,1,579.0,5
4,main,congruent,right,>>>>>,right,1,581.0,5
5,main,congruent,left,<<<<<,left,1,447.0,5
6,main,congruent,right,>>>>>,right,1,497.0,5
7,main,congruent,left,<<<<<,left,1,446.0,5
8,main,incongruent,left,>><>>,left,1,497.0,5
9,main,congruent,left,<<<<<,left,1,463.0,5
10,main,congruent,right,>>>>>,right,1,514.0,5
11,main,congruent,left,<<<<<,left,1,395.0,5
12,main,incongruent,right,<<><<,right,1,564.0,5
13,main,incongruent,left,>><>>,left,1,547.0,5
14,main,congruent,left,<<<<<,left,1,431.0,5
15,main,congruent,left,<<<<<,left,1,701.0,5
16,main,congruent,right,>>>>>,right,1,567.0,5
17,main,congruent,left,<<<<<,left,1,463.0,5
18,main,incongruent,right,<<><<,right,1,856.0,5
19,main,congruent,left,<<<<<,left,1,480.0,5
20,main,incongruent,left,>><>>,left,1,464.0,5
1,practice,incongruent,right,<<><<,no_response,0,,6
2,practice,incongruent,right,<<><<,right,1,787.0,6
3,practice,congruent,left,<<<<<,right,0,779.0,6
4,practice,incongruent,left,>><>>,left,1,584.0,6
1,main,congruent,left,<<<<<,left,1,360.0,6
2,main,congruent,right,>>>>>,right,1,342.0,6
3,main,congruent,right,>>>>>,right,1,377.0,6
4,main,incongruent,right,<<><<,right,1,429.0,6
5,main,congruent,right,>>>>>,right,1,344.0,6
6,main,congruent,right,>>>>>,right,1,276.0,6
7,main,congruent,left,<<<<<,left,1,294.0,6
8,main,incongruent,left,>><>>,left,1,375.0,6
9,main,congruent,right,>>>>>,right,1,312.0,6
10,main,congruent,right,>>>>>,right,1,327.0,6
11,main,incongruent,right,<<><<,left,0,344.0,6
12,main,congruent,right,>>>>>,right,1,344.0,6
13,main,congruent,left,<<<<<,left,1,393.0,6
14,main,congruent,left,<<<<<,left,1,428.0,6
15,main,congruent,right,>>>>>,right,1,327.0,6
16,main,incongruent,right,<<><<,left,0,345.0,6
17,main,incongruent,right,<<><<,left,0,328.0,6
18,main,congruent,left,<<<<<,left,1,378.0,6
19,main,incongruent,left,>><>>,left,1,414.0,6
20,main,congruent,left,<<<<<,left,1,312.0,6
1,practice,incongruent,left,>><>>,left,1,932.0,7
2,practice,incongruent,left,>><>>,right,0,940.0,7
3,practice,congruent,right,>>>>>,left,0,1262.0,7
4,practice,incongruent,left,>><>>,no_response,0,,7
1,main,congruent,left,<<<<<,left,1,974.0,7
2,main,congruent,left,<<<<<,left,1,664.0,7
3,main,incongruent,left,>><>>,left,1,857.0,7
4,main,incongruent,left,>><>>,left,1,550.0,7
5,main,incongruent,right,<<><<,right,1,445.0,7
6,main,incongruent,right,<<><<,right,1,446.0,7
7,main,incongruent,left,>><>>,left,1,464.0,7
8,main,incongruent,left,>><>>,left,1,514.0,7
9,main,congruent,right,>>>>>,right,1,311.0,7
10,main,incongruent,right,<<><<,right,1,410.0,7
11,main,congruent,right,>>>>>,right,1,431.0,7
12,main,incongruent,left,>><>>,left,1,443.0,7
13,main,incongruent,left,>><>>,right,0,346.0,7
14,main,congruent,left,<<<<<,left,1,466.0,7
15,main,congruent,left,<<<<<,left,1,527.0,7
16,main,congruent,left,<<<<<,left,1,462.0,7
17,main,congruent,right,>>>>>,right,1,463.0,7
18,main,congruent,left,<<<<<,left,1,567.0,7
19,main,incongruent,left,>><>>,left,1,581.0,7
20,main,congruent,right,>>>>>,right,1,396.0,7
1,practice,congruent,left,<<<<<,left,1,1235.0,8
2,practice,congruent,left,<<<<<,left,1,823.0,8
3,practice,incongruent,left,>><>>,no_response,0,,8
4,practice,incongruent,right,<<><<,right,1,788.0,8
1,main,congruent,left,<<<<<,left,1,703.0,8
2,main,incongruent,left,>><>>,left,1,888.0,8
3,main,congruent,right,>>>>>,right,1,585.0,8
4,main,incongruent,left,>><>>,left,1,818.0,8
5,main,congruent,right,>>>>>,right,1,548.0,8
6,main,congruent,left,<<<<<,left,1,514.0,8
7,main,incongruent,right,<<><<,right,1,546.0,8
8,main,congruent,right,>>>>>,right,1,533.0,8
9,main,incongruent,left,>><>>,left,1,680.0,8
10,main,incongruent,right,<<><<,right,1,498.0,8
11,main,incongruent,right,<<><<,right,1,578.0,8
12,main,congruent,right,>>>>>,right,1,464.0,8
13,main,congruent,left,<<<<<,left,1,500.0,8
14,main,congruent,right,>>>>>,right,1,512.0,8
15,main,incongruent,right,<<><<,right,1,875.0,8
16,main,incongruent,right,<<><<,right,1,598.0,8
17,main,incongruent,left,>><>>,left,1,548.0,8
18,main,incongruent,left,>><>>,right,0,648.0,8
19,main,congruent,left,<<<<<,left,1,839.0,8
20,main,incongruent,left,>><>>,left,1,636.0,8
1,practice,incongruent,left,>><>>,left,1,915.0,9
2,practice,incongruent,right,<<><<,right,1,531.0,9
3,practice,congruent,right,>>>>>,right,1,438.0,9
4,practice,incongruent,right,<<><<,left,0,462.0,9
1,main,congruent,right,>>>>>,right,1,398.0,9
2,main,congruent,right,>>>>>,right,1,428.0,9
3,main,incongruent,right,<<><<,right,1,562.0,9
4,main,congruent,right,>>>>>,right,1,408.0,9
5,main,congruent,left,<<<<<,left,1,464.0,9
6,main,congruent,left,<<<<<,left,1,412.0,9
7,main,congruent,right,>>>>>,right,1,431.0,9
8,main,incongruent,right,<<><<,right,1,548.0,9
9,main,incongruent,left,>><>>,left,1,546.0,9
10,main,congruent,right,>>>>>,right,1,481.0,9
11,main,congruent,right,>>>>>,right,1,497.0,9
12,main,congruent,left,<<<<<,left,1,499.0,9
13,main,incongruent,right,<<><<,right,1,580.0,9
14,main,incongruent,right,<<><<,right,1,548.0,9
15,main,congruent,left,<<<<<,left,1,598.0,9
16,main,incongruent,right,<<><<,right,1,519.0,9
17,main,congruent,left,<<<<<,left,1,577.0,9
18,main,incongruent,left,>><>>,left,1,599.0,9
19,main,incongruent,right,<<><<,right,1,550.0,9
20,main,congruent,right,>>>>>,right,1,414.0,9
1,practice,incongruent,right,<<><<,right,1,680.0,10
2,practice,congruent,left,<<<<<,left,1,328.0,10
3,practice,incongruent,right,<<><<,right,1,426.0,10
4,practice,incongruent,left,>><>>,right,0,338.0,10
1,main,incongruent,left,>><>>,left,1,514.0,10
2,main,incongruent,right,<<><<,right,1,445.0,10
3,main,incongruent,left,>><>>,left,1,512.0,10
4,main,congruent,right,>>>>>,right,1,377.0,10
5,main,congruent,left,<<<<<,left,1,394.0,10
6,main,incongruent,right,<<><<,right,1,447.0,10
7,main,congruent,right,>>>>>,right,1,376.0,10
8,main,incongruent,left,>><>>,left,1,429.0,10
9,main,incongruent,left,>><>>,left,1,463.0,10
10,main,congruent,left,<<<<<,left,1,394.0,10
11,main,congruent,left,<<<<<,left,1,359.0,10
12,main,congruent,left,<<<<<,left,1,377.0,10
13,main,congruent,left,<<<<<,left,1,359.0,10
14,main,incongruent,right,<<><<,right,1,429.0,10
15,main,incongruent,right,<<><<,right,1,447.0,10
16,main,incongruent,right,<<><<,right,1,514.0,10
17,main,incongruent,right,<<><<,right,1,546.0,10
18,main,incongruent,left,>><>>,left,1,513.0,10
19,main,congruent,left,<<<<<,left,1,394.0,10
20,main,incongruent,right,<<><<,right,1,431.0,10
1,practice,congruent,left,<<<<<,no_response,0,,11
2,practice,incongruent,right,<<><<,no_response,0,,11
3,practice,incongruent,right,<<><<,right,1,699.0,11
4,practice,incongruent,right,<<><<,right,1,546.0,11
1,main,congruent,left,<<<<<,left,1,948.0,11
2,main,incongruent,left,>><>>,left,1,583.0,11
3,main,congruent,right,>>>>>,right,1,479.0,11
4,main,incongruent,left,>><>>,left,1,532.0,11
5,main,congruent,left,<<<<<,left,1,501.0,11
6,main,incongruent,left,>><>>,left,1,601.0,11
7,main,incongruent,left,>><>>,left,1,497.0,11
8,main,incongruent,right,<<><<,right,1,445.0,11
9,main,incongruent,left,>><>>,left,1,546.0,11
10,main,congruent,left,<<<<<,left,1,447.0,11
11,main,congruent,right,>>>>>,right,1,363.0,11
12,main,congruent,right,>>>>>,right,1,562.0,11
13,main,congruent,left,<<<<<,left,1,446.0,11
14,main,incongruent,right,<<><<,right,1,380.0,11
15,main,incongruent,right,<<><<,right,1,545.0,11
16,main,congruent,right,>>>>>,right,1,542.0,11
17,main,congruent,left,<<<<<,left,1,395.0,11
18,main,incongruent,left,>><>>,left,1,532.0,11
19,main,congruent,right,>>>>>,right,1,481.0,11
20,main,congruent,left,<<<<<,left,1,393.0,11
1,practice,congruent,left,<<<<<,left,1,951.0,12
2,practice,congruent,left,<<<<<,left,1,768.0,12
3,practice,incongruent,left,>><>>,right,0,715.0,12
4,practice,congruent,right,>>>>>,right,1,653.0,12
1,main,congruent,left,<<<<<,left,1,513.0,12
2,main,incongruent,right,<<><<,right,1,653.0,12
3,main,incongruent,left,>><>>,left,1,1350.0,12
4,main,incongruent,left,>><>>,left,1,613.0,12
5,main,congruent,left,<<<<<,left,1,686.0,12
6,main,incongruent,right,<<><<,right,1,669.0,12
7,main,incongruent,left,>><>>,left,1,582.0,12
8,main,incongruent,left,>><>>,left,1,651.0,12
9,main,congruent,right,>>>>>,right,1,585.0,12
10,main,incongruent,right,<<><<,right,1,515.0,12
11,main,congruent,left,<<<<<,left,1,501.0,12
12,main,congruent,right,>>>>>,right,1,447.0,12
13,main,congruent,left,<<<<<,left,1,431.0,12
14,main,incongruent,left,>><>>,left,1,479.0,12
15,main,incongruent,left,>><>>,left,1,650.0,12
16,main,congruent,left,<<<<<,left,1,480.0,12
17,main,congruent,left,<<<<<,left,1,446.0,12
18,main,congruent,left,<<<<<,left,1,430.0,12
19,main,congruent,left,<<<<<,left,1,429.0,12
20,main,congruent,right,>>>>>,right,1,413.0,12
1,practice,incongruent,left,>><>>,left,1,2010.0,13
2,practice,incongruent,left,>><>>,left,1,792.0,13
3,practice,congruent,left,<<<<<,left,1,701.0,13
4,practice,congruent,right,>>>>>,right,1,511.0,13
1,main,congruent,left,<<<<<,left,1,596.0,13
2,main,congruent,left,<<<<<,left,1,478.0,13
3,main,congruent,right,>>>>>,right,1,496.0,13
4,main,incongruent,left,>><>>,left,1,682.0,13
5,main,incongruent,right,<<><<,right,1,683.0,13
6,main,incongruent,right,<<><<,right,1,584.0,13
7,main,incongruent,right,<<><<,right,1,550.0,13
8,main,incongruent,right,<<><<,right,1,582.0,13
9,main,congruent,left,<<<<<,left,1,463.0,13
10,main,congruent,right,>>>>>,right,1,481.0,13
11,main,congruent,right,>>>>>,right,1,481.0,13
12,main,congruent,left,<<<<<,left,1,426.0,13
13,main,incongruent,left,>><>>,left,1,581.0,13
14,main,incongruent,right,<<><<,right,1,567.0,13
15,main,congruent,left,<<<<<,left,1,480.0,13
16,main,incongruent,right,<<><<,right,1,565.0,13
17,main,incongruent,left,>><>>,left,1,515.0,13
18,main,incongruent,left,>><>>,left,1,581.0,13
19,main,incongruent,left,>><>>,left,1,514.0,13
20,main,congruent,left,<<<<<,left,1,582.0,13
1,practice,congruent,right,>>>>>,right,1,597.0,14
2,practice,incongruent,right,<<><<,right,1,590.0,14
3,practice,incongruent,left,>><>>,left,1,495.0,14
4,practice,incongruent,left,>><>>,right,0,397.0,14
1,main,congruent,left,<<<<<,left,1,567.0,14
2,main,incongruent,right,<<><<,right,1,532.0,14
3,main,congruent,right,>>>>>,right,1,479.0,14
4,main,incongruent,right,<<><<,right,1,548.0,14
5,main,incongruent,right,<<><<,right,1,602.0,14
6,main,congruent,right,>>>>>,right,1,429.0,14
7,main,incongruent,right,<<><<,right,1,567.0,14
8,main,congruent,right,>>>>>,right,1,445.0,14
9,main,congruent,left,<<<<<,left,1,394.0,14
10,main,incongruent,left,>><>>,left,1,567.0,14
11,main,incongruent,left,>><>>,left,1,497.0,14
12,main,incongruent,right,<<><<,right,1,596.0,14
13,main,congruent,right,>>>>>,right,1,429.0,14
14,main,incongruent,right,<<><<,right,1,626.0,14
15,main,incongruent,left,>><>>,left,1,497.0,14
16,main,congruent,right,>>>>>,right,1,463.0,14
17,main,congruent,left,<<<<<,left,1,394.0,14
18,main,congruent,right,>>>>>,right,1,362.0,14
19,main,congruent,left,<<<<<,left,1,362.0,14
20,main,congruent,right,>>>>>,right,1,446.0,14
1,practice,incongruent,right,<<><<,no_response,0,,15
2,practice,congruent,right,>>>>>,right,1,963.0,15
3,practice,incongruent,right,<<><<,no_response,0,,15
4,practice,incongruent,right,<<><<,left,0,665.0,15
1,main,congruent,left,<<<<<,left,1,481.0,15
2,main,congruent,right,>>>>>,right,1,396.0,15
3,main,congruent,right,>>>>>,right,1,386.0,15
4,main,incongruent,left,>><>>,left,1,395.0,15
5,main,congruent,right,>>>>>,right,1,344.0,15
6,main,incongruent,left,>><>>,left,1,410.0,15
7,main,incongruent,left,>><>>,right,0,396.0,15
8,main,incongruent,left,>><>>,left,1,429.0,15
9,main,incongruent,left,>><>>,left,1,411.0,15
10,main,incongruent,left,>><>>,right,0,328.0,15
11,main,incongruent,left,>><>>,left,1,325.0,15
12,main,congruent,left,<<<<<,left,1,328.0,15
13,main,congruent,left,<<<<<,left,1,327.0,15
14,main,congruent,left,<<<<<,left,1,292.0,15
15,main,congruent,left,<<<<<,left,1,243.0,15
16,main,congruent,left,<<<<<,left,1,277.0,15
17,main,congruent,left,<<<<<,left,1,244.0,15
18,main,congruent,right,>>>>>,left,0,311.0,15
19,main,congruent,right,>>>>>,right,1,347.0,15
20,main,congruent,left,<<<<<,left,1,292.0,15
1,practice,congruent,left,<<<<<,left,1,1490.0,16
2,practice,incongruent,left,>><>>,right,0,293.0,16
3,practice,congruent,right,>>>>>,right,1,554.0,16
4,practice,congruent,left,<<<<<,left,1,329.0,16
1,main,incongruent,right,<<><<,right,1,635.0,16
2,main,incongruent,right,<<><<,left,0,513.0,16
3,main,congruent,left,<<<<<,left,1,548.0,16
4,main,congruent,right,>>>>>,right,1,310.0,16
5,main,congruent,right,>>>>>,left,0,276.0,16
6,main,congruent,right,>>>>>,right,1,464.0,16
7,main,incongruent,right,<<><<,left,0,362.0,16
8,main,incongruent,left,>><>>,right,0,735.0,16
9,main,congruent,right,>>>>>,right,1,548.0,16
10,main,incongruent,right,<<><<,left,1,566.0,16
11,main,incongruent,left,>><>>,right,0,699.0,16
12,main,congruent,right,>>>>>,right,1,819.0,16
13,main,congruent,right,>>>>>,right,1,531.0,16
14,main,incongruent,left,>><>>,no_response,0,,16
15,main,congruent,left,<<<<<,left,1,531.0,16
16,main,congruent,right,>>>>>,right,1,414.0,16
17,main,incongruent,right,<<><<,right,1,665.0,16
18,main,incongruent,left,>><>>,right,0,939.0,16
19,main,incongruent,right,<<><<,left,1,702.0,16
20,main,incongruent,left,>><>>,right,0,666.0,16
